% freq(Hz)  realZ(freq)  imagZ(freq)
1	183342	-38079.7
2	161279	-78884.8
3	126536	-103464
4	92000.9	-110191
5	64876.9	-106047
6	45683.3	-97523.4
7	32565.2	-88125.2
8	23614.2	-79292.4
9	17429.3	-71472.1
10	13079.1	-64705.7
11	9961.48	-58892.6
12	7686.47	-53896.8
13	5998.67	-49586.8
14	4727.79	-45848.3
15	3758.17	-42585.7
16	3009.8	-39720.9
17	2426.35	-37190.1
18	1967.49	-34941.4
19	1603.89	-32932.6
20	1313.95	-31129
21	1081.53	-29501.9
22	894.434	-28027.5
23	743.335	-26686.2
24	621.043	-25461.1
25	521.954	-24338.3
26	441.669	-23305.9
27	376.702	-22353.6
28	324.275	-21472.7
29	282.156	-20655.6
30	248.545	-19895.8
31	221.978	-19187.6
32	201.258	-18526.1
33	185.407	-17906.8
34	173.614	-17326
35	165.211	-16780.2
36	159.641	-16266.4
37	156.442	-15781.9
38	155.226	-15324.3
39	155.666	-14891.5
40	157.489	-14481.6
41	160.465	-14092.8
42	164.397	-13723.6
43	169.122	-13372.5
44	174.498	-13038.3
45	180.407	-12719.7
46	186.748	-12415.8
47	193.433	-12125.5
48	200.391	-11848
49	207.557	-11582.5
50	214.879	-11328.2
51	222.311	-11084.4
52	229.814	-10850.5
53	237.356	-10625.9
54	244.908	-10410.1
55	252.446	-10202.6
56	259.951	-10002.9
57	267.406	-9810.6
58	274.795	-9625.28
59	282.108	-9446.59
60	289.334	-9274.18
61	296.465	-9107.73
62	303.495	-8946.93
63	310.417	-8791.52
64	317.228	-8641.22
65	323.925	-8495.8
66	330.504	-8355.02
67	336.964	-8218.66
68	343.305	-8086.53
69	349.525	-7958.43
70	355.625	-7834.18
71	361.603	-7713.62
72	367.462	-7596.58
73	373.202	-7482.91
74	378.824	-7372.48
75	384.329	-7265.14
76	389.72	-7160.78
77	394.996	-7059.26
78	400.161	-6960.49
79	405.215	-6864.34
80	410.162	-6770.72
81	415.002	-6679.52
82	419.738	-6590.67
83	424.371	-6504.06
84	428.905	-6419.63
85	433.34	-6337.27
86	437.68	-6256.93
87	441.925	-6178.53
88	446.078	-6102
89	854.565	-6132.77
90	848.644	-6058.02
91	842.985	-5984.98
92	837.575	-5913.62
93	832.4	-5843.86
94	827.448	-5775.66
95	822.707	-5708.97
96	818.167	-5643.74
97	813.817	-5579.91
98	809.648	-5517.46
99	805.651	-5456.33
100	801.817	-5396.49
101	798.138	-5337.89
102	794.607	-5280.5
103	791.217	-5224.28
104	787.96	-5169.19
105	784.83	-5115.21
106	781.822	-5062.29
107	778.93	-5010.42
108	776.148	-4959.55
109	773.471	-4909.67
110	770.894	-4860.73
111	768.414	-4812.73
112	766.024	-4765.62
113	763.722	-4719.4
114	761.504	-4674.02
115	759.365	-4629.47
116	757.303	-4585.73
117	755.314	-4542.78
118	753.394	-4500.59
119	751.541	-4459.14
120	749.752	-4418.42
121	748.024	-4378.41
122	746.355	-4339.08
123	744.742	-4300.43
124	743.183	-4262.44
125	741.675	-4225.08
126	740.217	-4188.34
127	738.807	-4152.22
128	737.442	-4116.68
129	736.12	-4081.72
130	734.841	-4047.33
131	733.602	-4013.49
132	732.401	-3980.19
133	731.238	-3947.41
134	730.11	-3915.15
135	729.017	-3883.39
136	727.956	-3852.12
137	726.928	-3821.33
138	725.93	-3791.01
139	724.961	-3761.14
140	724.02	-3731.73
141	723.107	-3702.75
142	722.22	-3674.2
143	721.358	-3646.07
144	720.52	-3618.34
145	719.706	-3591.02
146	718.914	-3564.1
147	718.144	-3537.55
148	717.395	-3511.39
149	716.666	-3485.59
150	715.956	-3460.15
151	715.266	-3435.06
152	714.593	-3410.33
153	713.938	-3385.93
154	713.299	-3361.86
155	712.677	-3338.12
156	712.071	-3314.7
157	711.48	-3291.59
158	710.903	-3268.78
159	710.341	-3246.28
160	709.792	-3224.07
161	709.257	-3202.15
162	708.734	-3180.52
163	708.223	-3159.16
164	707.725	-3138.08
165	707.238	-3117.26
166	706.762	-3096.71
167	706.297	-3076.41
168	705.843	-3056.37
169	705.399	-3036.58
170	704.964	-3017.03
171	704.539	-2997.71
172	704.123	-2978.64
173	703.716	-2959.79
174	703.318	-2941.18
175	702.928	-2922.78
176	702.546	-2904.6
177	792.82	-2915.09
178	791.328	-2897.13
179	789.864	-2879.37
180	788.426	-2861.83
181	787.015	-2844.48
182	785.629	-2827.34
183	784.268	-2810.39
184	782.931	-2793.63
185	781.617	-2777.07
186	780.327	-2760.69
187	779.059	-2744.49
188	777.814	-2728.47
189	776.589	-2712.63
190	775.386	-2696.97
191	774.203	-2681.47
192	773.04	-2666.15
193	771.896	-2650.99
194	770.772	-2635.99
195	769.666	-2621.15
196	768.578	-2606.48
197	767.508	-2591.96
198	766.456	-2577.59
199	765.42	-2563.37
200	764.401	-2549.3
201	763.398	-2535.38
202	762.411	-2521.6
203	761.439	-2507.97
204	760.483	-2494.47
205	759.541	-2481.11
206	758.614	-2467.89
207	757.701	-2454.8
208	756.802	-2441.84
209	755.916	-2429.01
210	755.044	-2416.31
211	754.185	-2403.73
212	753.338	-2391.28
213	752.504	-2378.95
214	751.683	-2366.74
215	750.873	-2354.65
216	750.075	-2342.68
217	749.288	-2330.82
218	748.512	-2319.07
219	747.748	-2307.44
220	746.994	-2295.92
221	746.251	-2284.5
222	745.518	-2273.2
223	744.796	-2262
224	744.083	-2250.9
225	743.38	-2239.91
226	742.687	-2229.02
227	742.003	-2218.23
228	741.328	-2207.53
229	740.663	-2196.94
230	740.006	-2186.44
231	739.358	-2176.04
232	738.718	-2165.73
233	738.087	-2155.51
234	737.463	-2145.38
235	736.848	-2135.35
236	736.241	-2125.4
237	735.642	-2115.54
238	735.05	-2105.76
239	734.466	-2096.07
240	733.888	-2086.47
241	733.319	-2076.95
242	732.756	-2067.51
243	732.2	-2058.15
244	731.651	-2048.87
245	731.109	-2039.67
246	730.573	-2030.55
247	730.044	-2021.51
248	729.521	-2012.54
249	729.004	-2003.65
250	728.494	-1994.83
251	727.989	-1986.08
252	727.491	-1977.41
253	726.998	-1968.81
254	726.511	-1960.28
255	726.03	-1951.82
256	725.554	-1943.42
257	725.084	-1935.1
258	724.619	-1926.84
259	724.159	-1918.65
260	723.705	-1910.53
261	723.255	-1902.47
262	722.811	-1894.47
263	722.371	-1886.54
264	721.937	-1878.67
265	721.507	-1870.86
266	721.082	-1863.11
267	720.661	-1855.43
268	720.245	-1847.8
269	719.834	-1840.23
270	719.427	-1832.72
271	719.024	-1825.27
272	718.626	-1817.88
273	718.232	-1810.54
274	717.841	-1803.26
275	717.456	-1796.03
276	717.074	-1788.86
277	716.696	-1781.74
278	716.322	-1774.67
279	715.951	-1767.66
280	715.585	-1760.7
281	715.222	-1753.79
282	714.863	-1746.94
283	714.508	-1740.13
284	714.156	-1733.37
285	713.808	-1726.66
286	713.463	-1720
287	713.122	-1713.39
288	712.784	-1706.83
289	712.449	-1700.31
290	712.118	-1693.84
291	711.79	-1687.42
292	711.465	-1681.04
293	711.143	-1674.71
294	710.824	-1668.43
295	710.508	-1662.18
296	710.196	-1655.99
297	709.886	-1649.83
298	709.58	-1643.72
299	709.276	-1637.65
300	708.975	-1631.62
301	708.677	-1625.63
302	708.381	-1619.69
303	708.089	-1613.79
304	707.799	-1607.92
305	707.512	-1602.1
306	707.227	-1596.32
307	706.945	-1590.57
308	706.666	-1584.87
309	706.389	-1579.2
310	706.115	-1573.57
311	705.843	-1567.98
312	705.573	-1562.42
313	705.306	-1556.9
314	705.042	-1551.42
315	704.779	-1545.98
316	704.519	-1540.57
317	704.262	-1535.2
318	704.007	-1529.86
319	703.753	-1524.55
320	703.502	-1519.29
321	703.254	-1514.05
322	703.007	-1508.85
323	702.763	-1503.68
324	702.521	-1498.55
325	702.28	-1493.45
326	702.042	-1488.38
327	701.806	-1483.34
328	701.572	-1478.33
329	701.34	-1473.36
330	701.11	-1468.42
331	700.882	-1463.51
332	700.655	-1458.63
333	700.431	-1453.78
334	700.208	-1448.96
335	699.988	-1444.17
336	699.769	-1439.41
337	699.552	-1434.68
338	699.337	-1429.98
339	699.123	-1425.3
340	698.912	-1420.66
341	698.702	-1416.04
342	698.494	-1411.46
343	698.287	-1406.9
344	698.082	-1402.36
345	697.879	-1397.86
346	697.678	-1393.38
347	697.478	-1388.93
348	697.28	-1384.5
349	697.083	-1380.11
350	696.888	-1375.73
351	696.695	-1371.39
352	696.503	-1367.07
353	696.312	-1362.77
354	691.013	-1355.69
355	690.859	-1351.46
356	690.705	-1347.25
357	690.553	-1343.06
358	690.402	-1338.9
359	690.252	-1334.76
360	690.103	-1330.65
361	689.955	-1326.56
362	689.809	-1322.49
363	689.663	-1318.45
364	689.519	-1314.43
365	689.375	-1310.43
366	689.233	-1306.46
367	689.092	-1302.51
368	688.952	-1298.58
369	688.813	-1294.67
370	688.675	-1290.79
371	688.538	-1286.92
372	688.402	-1283.08
373	688.267	-1279.26
374	688.133	-1275.46
375	688.001	-1271.68
376	687.869	-1267.93
377	687.738	-1264.19
378	687.608	-1260.47
379	687.479	-1256.78
380	687.351	-1253.1
381	687.224	-1249.44
382	687.098	-1245.81
383	686.973	-1242.19
384	686.848	-1238.6
385	686.725	-1235.02
386	686.603	-1231.46
387	686.481	-1227.92
388	686.36	-1224.4
389	686.241	-1220.9
390	686.122	-1217.42
391	686.004	-1213.95
392	685.887	-1210.51
393	685.77	-1207.08
394	685.655	-1203.67
395	685.54	-1200.28
396	685.427	-1196.91
397	685.314	-1193.55
398	685.202	-1190.21
399	685.091	-1186.89
400	684.98	-1183.59
401	684.87	-1180.3
402	684.762	-1177.03
403	684.654	-1173.78
404	684.546	-1170.54
405	684.44	-1167.32
406	684.334	-1164.12
407	684.229	-1160.93
408	684.125	-1157.76
409	684.022	-1154.61
410	683.919	-1151.47
411	683.817	-1148.35
412	683.716	-1145.24
413	683.615	-1142.15
414	683.516	-1139.08
415	683.417	-1136.01
416	683.318	-1132.97
417	683.221	-1129.94
418	683.124	-1126.93
419	683.028	-1123.93
420	682.932	-1120.94
421	682.838	-1117.97
422	682.743	-1115.02
423	682.65	-1112.07
424	682.557	-1109.15
425	682.465	-1106.24
426	682.374	-1103.34
427	682.283	-1100.45
428	682.193	-1097.58
429	682.104	-1094.73
430	682.015	-1091.89
431	681.927	-1089.06
432	681.84	-1086.24
433	681.753	-1083.44
434	681.667	-1080.65
435	681.581	-1077.88
436	681.496	-1075.12
437	681.412	-1072.37
438	681.328	-1069.63
439	681.245	-1066.91
440	681.163	-1064.2
441	681.081	-1061.51
442	681	-1058.82
443	680.919	-1056.15
444	680.839	-1053.49
445	680.759	-1050.84
446	680.681	-1048.21
447	680.602	-1045.59
448	680.525	-1042.98
449	680.447	-1040.38
450	680.371	-1037.8
451	680.295	-1035.22
452	680.219	-1032.66
453	680.144	-1030.11
454	680.07	-1027.57
455	679.996	-1025.05
456	679.923	-1022.53
457	679.85	-1020.03
458	679.778	-1017.54
459	679.707	-1015.05
460	679.636	-1012.59
461	679.565	-1010.13
462	679.495	-1007.68
463	679.426	-1005.24
464	679.357	-1002.82
465	679.288	-1000.4
466	679.22	-997.999
467	679.153	-995.606
468	679.086	-993.223
469	679.02	-990.851
470	678.954	-988.49
471	678.889	-986.139
472	678.824	-983.798
473	678.759	-981.468
474	678.695	-979.148
475	678.632	-976.838
476	678.569	-974.539
477	678.507	-972.249
478	678.445	-969.969
479	678.383	-967.7
480	678.322	-965.44
481	678.262	-963.19
482	678.202	-960.95
483	678.142	-958.719
484	678.083	-956.498
485	678.025	-954.286
486	677.966	-952.084
487	677.909	-949.892
488	677.852	-947.709
489	677.795	-945.535
490	677.738	-943.37
491	677.683	-941.215
492	677.627	-939.069
493	677.572	-936.931
494	677.518	-934.803
495	677.463	-932.684
496	677.41	-930.574
497	677.356	-928.473
498	677.304	-926.38
499	677.251	-924.296
500	677.199	-922.221
501	677.148	-920.155
502	677.097	-918.097
503	677.046	-916.048
504	676.996	-914.007
505	676.946	-911.975
506	676.896	-909.951
507	676.847	-907.935
508	676.799	-905.928
509	676.751	-903.929
510	676.703	-901.938
511	676.655	-899.955
512	676.608	-897.981
513	676.562	-896.014
514	676.516	-894.056
515	676.47	-892.105
516	676.424	-890.163
517	676.379	-888.228
518	676.335	-886.301
519	676.291	-884.382
520	676.247	-882.47
521	676.203	-880.566
522	676.16	-878.67
523	676.117	-876.782
524	676.075	-874.901
525	676.033	-873.027
526	675.992	-871.161
527	675.95	-869.303
528	675.91	-867.451
529	675.869	-865.608
530	675.829	-863.771
531	675.789	-861.942
532	675.75	-860.12
533	675.711	-858.305
534	675.672	-856.497
535	675.634	-854.696
536	675.596	-852.902
537	675.559	-851.116
538	675.521	-849.336
539	675.484	-847.563
540	675.448	-845.797
541	675.412	-844.038
542	675.376	-842.286
543	675.34	-840.541
544	675.305	-838.802
545	675.271	-837.07
546	675.236	-835.345
547	675.202	-833.626
548	675.168	-831.914
549	675.135	-830.208
550	675.102	-828.509
551	675.069	-826.817
552	675.036	-825.131
553	675.004	-823.451
554	674.973	-821.778
555	674.941	-820.111
556	674.91	-818.45
557	674.879	-816.796
558	674.849	-815.148
559	674.818	-813.506
560	674.789	-811.87
561	674.759	-810.24
562	674.73	-808.617
563	674.701	-806.999
564	674.672	-805.388
565	674.644	-803.783
566	674.616	-802.183
567	674.588	-800.59
568	674.561	-799.002
569	674.534	-797.421
570	674.507	-795.845
571	674.481	-794.275
572	674.455	-792.711
573	674.429	-791.152
574	674.403	-789.6
575	674.378	-788.053
576	674.353	-786.512
577	674.328	-784.976
578	674.304	-783.446
579	674.28	-781.921
580	674.256	-780.403
581	674.233	-778.889
582	674.21	-777.381
583	674.187	-775.879
584	674.164	-774.382
585	674.142	-772.89
586	674.12	-771.404
587	674.098	-769.923
588	674.076	-768.448
589	674.055	-766.978
590	674.034	-765.513
591	674.014	-764.053
592	673.993	-762.599
593	673.973	-761.15
594	673.953	-759.706
595	673.934	-758.267
596	673.915	-756.833
597	673.896	-755.404
598	673.877	-753.981
599	673.858	-752.562
600	673.84	-751.148
601	673.822	-749.74
602	673.805	-748.336
603	673.787	-746.938
604	673.77	-745.544
605	673.753	-744.155
606	673.737	-742.771
607	673.72	-741.392
608	673.704	-740.018
609	673.688	-738.648
610	673.673	-737.283
611	673.657	-735.923
612	673.642	-734.568
613	673.627	-733.218
614	673.613	-731.872
615	673.598	-730.53
616	673.584	-729.194
617	673.571	-727.862
618	673.557	-726.535
619	673.544	-725.212
620	673.531	-723.894
621	673.518	-722.58
622	673.505	-721.271
623	673.493	-719.966
624	673.481	-718.666
625	673.469	-717.37
626	673.457	-716.078
627	673.446	-714.791
628	673.434	-713.509
629	673.424	-712.23
630	673.413	-710.956
631	673.402	-709.687
632	673.392	-708.421
633	673.382	-707.16
634	673.372	-705.904
635	673.363	-704.651
636	673.354	-703.403
637	673.344	-702.159
638	673.336	-700.919
639	673.327	-699.683
640	673.319	-698.451
641	673.31	-697.223
642	673.302	-696
643	673.295	-694.781
644	673.287	-693.565
645	673.28	-692.354
646	673.273	-691.147
647	673.266	-689.943
648	673.259	-688.744
649	673.253	-687.549
650	673.247	-686.358
651	673.241	-685.17
652	673.235	-683.987
653	673.23	-682.807
654	673.224	-681.631
655	673.219	-680.459
656	673.214	-679.291
657	673.21	-678.127
658	673.205	-676.967
659	673.201	-675.81
660	673.197	-674.657
661	673.193	-673.508
662	673.189	-672.363
663	673.186	-671.221
664	673.182	-670.083
665	673.179	-668.949
666	673.177	-667.819
667	673.174	-666.692
668	673.171	-665.569
669	673.169	-664.449
670	673.167	-663.333
671	673.165	-662.221
672	673.164	-661.112
673	673.162	-660.007
674	673.161	-658.905
675	673.16	-657.807
676	673.159	-656.712
677	673.158	-655.621
678	673.158	-654.533
679	673.158	-653.449
680	673.158	-652.369
681	673.158	-651.291
682	673.158	-650.217
683	673.158	-649.147
684	673.159	-648.08
685	673.16	-647.016
686	673.161	-645.956
687	673.162	-644.899
688	673.164	-643.845
689	673.165	-642.795
690	673.167	-641.748
691	673.169	-640.704
692	673.171	-639.664
693	673.173	-638.627
694	673.176	-637.593
695	673.179	-636.562
696	673.181	-635.535
697	673.184	-634.511
698	673.188	-633.49
699	673.191	-632.472
700	673.195	-631.457
701	673.198	-630.446
702	673.202	-629.438
703	673.206	-628.432
704	673.211	-627.43
705	673.215	-626.431
706	673.22	-625.435
707	673.224	-624.443
708	678.34	-630.066
709	678.323	-629.068
710	678.307	-628.074
711	678.29	-627.082
712	678.274	-626.094
713	678.259	-625.109
714	678.243	-624.126
715	678.228	-623.147
716	678.213	-622.171
717	678.199	-621.198
718	678.184	-620.227
719	678.17	-619.26
720	678.156	-618.296
721	678.142	-617.334
722	678.129	-616.376
723	678.116	-615.42
724	678.103	-614.467
725	678.09	-613.517
726	678.078	-612.57
727	678.065	-611.626
728	678.053	-610.685
729	678.042	-609.747
730	678.03	-608.811
731	678.019	-607.879
732	678.008	-606.949
733	677.997	-606.022
734	677.986	-605.097
735	677.976	-604.176
736	677.966	-603.257
737	677.956	-602.341
738	677.946	-601.428
739	677.937	-600.517
740	677.928	-599.61
741	677.919	-598.704
742	677.91	-597.802
743	677.901	-596.902
744	677.893	-596.005
745	677.885	-595.111
746	677.877	-594.219
747	677.869	-593.33
748	677.862	-592.444
749	677.855	-591.56
750	677.848	-590.679
751	677.841	-589.801
752	677.834	-588.925
753	677.828	-588.051
754	677.822	-587.181
755	677.816	-586.312
756	677.81	-585.447
757	677.804	-584.584
758	677.799	-583.723
759	677.794	-582.865
760	677.789	-582.01
761	677.784	-581.157
762	677.78	-580.306
763	677.775	-579.458
764	677.771	-578.613
765	677.767	-577.77
766	677.764	-576.929
767	677.76	-576.091
768	677.757	-575.255
769	677.754	-574.422
770	677.751	-573.591
771	677.748	-572.763
772	677.745	-571.937
773	677.743	-571.114
774	677.741	-570.292
775	677.739	-569.474
776	677.737	-568.657
777	677.735	-567.843
778	677.734	-567.031
779	677.733	-566.222
780	677.732	-565.415
781	677.731	-564.61
782	677.73	-563.808
783	677.73	-563.008
784	677.73	-562.21
785	677.729	-561.415
786	677.729	-560.621
787	677.73	-559.83
788	677.73	-559.042
789	677.731	-558.255
790	677.731	-557.471
791	677.732	-556.689
792	677.734	-555.91
793	677.735	-555.132
794	677.736	-554.357
795	677.738	-553.584
796	677.74	-552.813
797	677.742	-552.045
798	677.744	-551.278
799	677.746	-550.514
800	677.749	-549.752
801	677.752	-548.992
802	677.754	-548.234
803	677.757	-547.479
804	677.761	-546.725
805	677.764	-545.974
806	677.767	-545.225
807	677.771	-544.478
808	677.775	-543.733
809	677.779	-542.99
810	677.783	-542.249
811	677.787	-541.511
812	677.792	-540.774
813	677.796	-540.04
814	677.801	-539.307
815	677.806	-538.577
816	677.811	-537.848
817	677.816	-537.122
818	677.822	-536.398
819	677.827	-535.676
820	677.833	-534.955
821	677.839	-534.237
822	677.845	-533.521
823	677.851	-532.807
824	677.858	-532.095
825	677.864	-531.385
826	677.871	-530.676
827	677.877	-529.97
828	677.884	-529.266
829	677.891	-528.564
830	677.899	-527.863
831	677.906	-527.165
832	677.913	-526.468
833	677.921	-525.774
834	677.929	-525.081
835	677.937	-524.391
836	677.945	-523.702
837	677.953	-523.015
838	677.961	-522.33
839	677.97	-521.647
840	677.978	-520.966
841	677.987	-520.286
842	677.996	-519.609
843	678.005	-518.934
844	678.014	-518.26
845	678.024	-517.588
846	678.033	-516.918
847	678.043	-516.25
848	678.052	-515.584
849	678.062	-514.919
850	678.072	-514.257
851	678.082	-513.596
852	678.092	-512.937
853	678.103	-512.279
854	678.113	-511.624
855	678.124	-510.97
856	678.135	-510.319
857	678.146	-509.669
858	678.157	-509.02
859	678.168	-508.374
860	678.179	-507.729
861	678.19	-507.086
862	678.202	-506.445
863	678.213	-505.806
864	678.225	-505.168
865	678.237	-504.532
866	678.249	-503.898
867	678.261	-503.265
868	678.273	-502.634
869	678.286	-502.005
870	678.298	-501.378
871	678.311	-500.752
872	678.323	-500.128
873	678.336	-499.506
874	678.349	-498.885
875	678.362	-498.266
876	678.375	-497.649
877	678.388	-497.034
878	678.402	-496.42
879	678.415	-495.807
880	678.429	-495.197
881	678.443	-494.588
882	678.456	-493.981
883	678.47	-493.375
884	678.484	-492.771
885	678.499	-492.169
886	678.513	-491.568
887	678.527	-490.969
888	678.542	-490.371
889	678.556	-489.775
890	678.571	-489.181
891	678.586	-488.588
892	678.601	-487.997
893	678.616	-487.407
894	678.631	-486.819
895	678.646	-486.233
896	678.661	-485.648
897	678.677	-485.065
898	678.692	-484.483
899	678.708	-483.903
900	678.723	-483.324
901	678.739	-482.747
902	678.755	-482.172
903	678.771	-481.598
904	678.787	-481.026
905	678.803	-480.455
906	678.82	-479.885
907	678.836	-479.317
908	678.853	-478.751
909	678.869	-478.186
910	678.886	-477.623
911	678.903	-477.061
912	678.919	-476.501
913	678.936	-475.942
914	678.953	-475.384
915	678.971	-474.829
916	678.988	-474.274
917	679.005	-473.721
918	679.023	-473.17
919	679.04	-472.62
920	679.058	-472.071
921	679.075	-471.524
922	679.093	-470.979
923	679.111	-470.434
924	679.129	-469.892
925	679.147	-469.35
926	679.165	-468.811
927	679.183	-468.272
928	679.201	-467.735
929	679.22	-467.199
930	679.238	-466.665
931	679.257	-466.132
932	679.275	-465.601
933	679.294	-465.071
934	679.313	-464.543
935	679.331	-464.015
936	679.35	-463.49
937	679.369	-462.965
938	679.388	-462.442
939	679.408	-461.921
940	679.427	-461.4
941	679.446	-460.882
942	679.466	-460.364
943	679.485	-459.848
944	679.505	-459.333
945	679.524	-458.82
946	679.544	-458.307
947	679.564	-457.797
948	679.583	-457.287
949	679.603	-456.779
950	679.623	-456.273
951	679.643	-455.767
952	679.663	-455.263
953	679.684	-454.76
954	679.704	-454.259
955	679.724	-453.759
956	679.745	-453.26
957	679.765	-452.762
958	679.786	-452.266
959	679.806	-451.771
960	679.827	-451.278
961	679.847	-450.785
962	679.868	-450.294
963	679.889	-449.805
964	679.91	-449.316
965	679.931	-448.829
966	679.952	-448.343
967	679.973	-447.858
968	679.994	-447.375
969	680.016	-446.893
970	680.037	-446.412
971	680.058	-445.932
972	680.08	-445.454
973	680.101	-444.977
974	680.123	-444.501
975	680.144	-444.027
976	680.166	-443.553
977	680.188	-443.081
978	680.21	-442.61
979	680.231	-442.14
980	680.253	-441.672
981	680.275	-441.205
982	680.297	-440.739
983	680.319	-440.274
984	680.341	-439.81
985	680.364	-439.348
986	680.386	-438.887
987	680.408	-438.427
988	680.43	-437.968
989	680.453	-437.51
990	680.475	-437.054
991	680.498	-436.599
992	680.52	-436.145
993	680.543	-435.692
994	680.566	-435.24
995	680.588	-434.79
996	680.611	-434.34
997	680.634	-433.892
998	680.657	-433.445
999	680.679	-432.999
1000	680.702	-432.555
