% freq(Hz)  realZ(freq)  imagZ(freq)
1	135880	-92193.4
2	59344.6	-101048
3	25088.2	-78881.9
4	11793.5	-60946.5
5	6048.43	-48672.5
6	3277.37	-40146.9
7	1824.74	-33993.4
8	1016.69	-29385
9	548.721	-25823.2
10	271.085	-22997.1
11	104.941	-20705.1
12	6.45414	-18811.9
13	-49.8586	-17223.5
14	-79.3617	-15873.2
15	-91.6009	-14711.9
16	-92.6551	-13703.2
17	-86.4743	-12819.2
18	-75.6668	-12038.5
19	-61.9767	-11344.3
20	-46.581	-10723.1
21	-30.2778	-10164.1
22	-13.6095	-9658.49
23	3.05675	-9199.15
24	19.4747	-8780.04
25	35.4823	-8396.17
26	50.9762	-8043.32
27	65.894	-7717.92
28	80.2025	-7416.93
29	93.8884	-7137.73
30	106.952	-6878.06
31	119.405	-6635.97
32	131.262	-6409.75
33	142.546	-6197.91
34	153.279	-5999.13
35	163.485	-5812.25
36	173.191	-5636.25
37	182.421	-5470.21
38	191.199	-5313.33
39	199.551	-5164.86
40	207.499	-5024.16
41	215.065	-4890.64
42	222.27	-4763.77
43	229.135	-4643.08
44	235.678	-4528.11
45	241.916	-4418.48
46	247.868	-4313.84
47	253.548	-4213.84
48	258.972	-4118.19
49	264.153	-4026.62
50	269.105	-3938.87
51	273.84	-3854.71
52	278.37	-3773.92
53	282.705	-3696.31
54	286.856	-3621.7
55	290.833	-3549.92
56	294.643	-3480.8
57	298.297	-3414.21
58	301.802	-3350.01
59	305.165	-3288.08
60	308.394	-3228.29
61	311.494	-3170.54
62	314.474	-3114.73
63	317.337	-3060.76
64	320.091	-3008.55
65	322.739	-2958
66	325.288	-2909.04
67	327.741	-2861.6
68	330.104	-2815.61
69	332.38	-2771
70	334.573	-2727.72
71	336.688	-2685.69
72	338.727	-2644.88
73	340.694	-2605.23
74	342.592	-2566.69
75	344.425	-2529.21
76	346.194	-2492.75
77	347.903	-2457.27
78	349.554	-2422.74
79	351.15	-2389.11
80	352.693	-2356.34
81	354.186	-2324.42
82	355.629	-2293.3
83	357.026	-2262.95
84	358.379	-2233.35
85	359.688	-2204.47
86	360.956	-2176.28
87	362.184	-2148.76
88	363.374	-2121.89
89	417.752	-2105.75
90	417.64	-2079.91
91	417.536	-2054.66
92	417.44	-2029.98
93	417.351	-2005.84
94	417.27	-1982.24
95	417.194	-1959.14
96	417.125	-1936.55
97	417.061	-1914.43
98	417.003	-1892.78
99	416.949	-1871.58
100	416.9	-1850.82
101	416.855	-1830.48
102	416.814	-1810.55
103	416.776	-1791.02
104	416.742	-1771.88
105	416.711	-1753.11
106	416.684	-1734.7
107	416.659	-1716.65
108	416.636	-1698.95
109	416.616	-1681.57
110	416.599	-1664.52
111	416.583	-1647.79
112	416.57	-1631.36
113	416.559	-1615.23
114	416.549	-1599.39
115	416.542	-1583.83
116	416.535	-1568.55
117	416.531	-1553.53
118	416.528	-1538.78
119	416.526	-1524.28
120	416.526	-1510.02
121	416.527	-1496.01
122	416.529	-1482.23
123	416.533	-1468.68
124	416.537	-1455.35
125	416.543	-1442.25
126	416.55	-1429.35
127	416.557	-1416.66
128	416.566	-1404.17
129	416.576	-1391.88
130	416.586	-1379.79
131	416.598	-1367.88
132	416.61	-1356.15
133	416.623	-1344.61
134	416.637	-1333.23
135	416.652	-1322.04
136	416.667	-1311
137	416.684	-1300.13
138	416.701	-1289.43
139	416.719	-1278.87
140	416.737	-1268.47
141	416.756	-1258.23
142	416.776	-1248.12
143	416.797	-1238.16
144	416.819	-1228.34
145	416.841	-1218.66
146	416.863	-1209.11
147	416.887	-1199.7
148	416.911	-1190.41
149	416.936	-1181.25
150	416.962	-1172.21
151	416.988	-1163.29
152	417.015	-1154.49
153	417.042	-1145.81
154	417.071	-1137.24
155	417.1	-1128.78
156	417.129	-1120.43
157	417.16	-1112.19
158	417.19	-1104.06
159	417.222	-1096.02
160	417.254	-1088.09
161	417.287	-1080.26
162	417.321	-1072.52
163	417.355	-1064.88
164	417.391	-1057.34
165	417.426	-1049.88
166	417.463	-1042.52
167	417.5	-1035.24
168	417.538	-1028.06
169	417.576	-1020.95
170	417.615	-1013.93
171	417.655	-1007
172	417.696	-1000.14
173	417.737	-993.362
174	417.779	-986.663
175	417.822	-980.041
176	417.865	-973.494
177	431.156	-970.532
178	431.053	-964.113
179	430.953	-957.765
180	430.856	-951.488
181	430.763	-945.28
182	430.673	-939.141
183	430.585	-933.068
184	430.501	-927.062
185	430.419	-921.12
186	430.341	-915.242
187	430.265	-909.427
188	430.192	-903.673
189	430.122	-897.98
190	430.055	-892.347
191	429.99	-886.772
192	429.928	-881.255
193	429.869	-875.795
194	429.812	-870.391
195	429.758	-865.043
196	429.706	-859.748
197	429.656	-854.507
198	429.609	-849.318
199	429.565	-844.181
200	429.523	-839.095
201	429.483	-834.06
202	429.445	-829.073
203	429.41	-824.136
204	429.377	-819.246
205	429.346	-814.404
206	429.318	-809.608
207	429.291	-804.858
208	429.267	-800.153
209	429.245	-795.493
210	429.225	-790.877
211	429.207	-786.303
212	429.191	-781.773
213	429.177	-777.284
214	429.165	-772.837
215	429.155	-768.431
216	429.146	-764.065
217	429.14	-759.739
218	429.136	-755.451
219	429.134	-751.203
220	429.133	-746.992
221	429.135	-742.819
222	429.138	-738.683
223	429.143	-734.584
224	429.15	-730.52
225	429.158	-726.492
226	429.169	-722.499
227	429.181	-718.541
228	429.195	-714.616
229	429.21	-710.726
230	429.228	-706.868
231	429.246	-703.044
232	429.267	-699.251
233	429.289	-695.491
234	429.313	-691.762
235	429.339	-688.064
236	429.366	-684.397
237	429.395	-680.761
238	429.425	-677.154
239	429.457	-673.577
240	429.49	-670.029
241	429.525	-666.509
242	429.562	-663.018
243	429.6	-659.556
244	429.639	-656.121
245	429.68	-652.713
246	429.723	-649.333
247	429.766	-645.979
248	429.812	-642.652
249	429.859	-639.35
250	429.907	-636.075
251	429.957	-632.825
252	430.008	-629.6
253	430.061	-626.4
254	430.114	-623.224
255	430.17	-620.073
256	430.227	-616.946
257	430.285	-613.842
258	430.344	-610.762
259	430.405	-607.705
260	430.467	-604.671
261	430.53	-601.66
262	430.595	-598.671
263	430.661	-595.704
264	430.729	-592.758
265	430.798	-589.835
266	430.868	-586.933
267	430.939	-584.052
268	431.011	-581.192
269	431.085	-578.352
270	431.16	-575.533
271	431.237	-572.734
272	431.314	-569.955
273	431.393	-567.196
274	431.473	-564.457
275	431.554	-561.736
276	431.637	-559.035
277	431.721	-556.353
278	431.805	-553.689
279	431.891	-551.044
280	431.979	-548.418
281	432.067	-545.809
282	432.157	-543.218
283	432.248	-540.645
284	432.34	-538.09
285	432.433	-535.552
286	432.527	-533.031
287	432.622	-530.527
288	432.719	-528.04
289	432.817	-525.57
290	432.915	-523.116
291	433.015	-520.679
292	433.116	-518.257
293	433.219	-515.852
294	433.322	-513.462
295	433.426	-511.088
296	433.532	-508.73
297	433.638	-506.387
298	433.746	-504.059
299	433.855	-501.746
300	433.964	-499.448
301	434.075	-497.165
302	434.187	-494.897
303	434.3	-492.643
304	434.414	-490.403
305	434.529	-488.177
306	434.646	-485.966
307	434.763	-483.768
308	434.881	-481.585
309	435	-479.414
310	435.12	-477.258
311	435.242	-475.115
312	435.364	-472.985
313	435.487	-470.868
314	435.612	-468.764
315	435.737	-466.673
316	435.863	-464.595
317	435.991	-462.53
318	436.119	-460.477
319	436.248	-458.437
320	436.379	-456.409
321	436.51	-454.393
322	436.642	-452.389
323	436.776	-450.397
324	436.91	-448.418
325	437.045	-446.449
326	437.181	-444.493
327	437.318	-442.548
328	437.456	-440.615
329	437.595	-438.693
330	437.735	-436.782
331	437.876	-434.882
332	438.018	-432.994
333	438.161	-431.116
334	438.305	-429.249
335	438.449	-427.394
336	438.595	-425.548
337	438.741	-423.714
338	438.889	-421.89
339	439.037	-420.076
340	439.186	-418.273
341	439.337	-416.479
342	439.488	-414.696
343	439.64	-412.924
344	439.793	-411.161
345	439.946	-409.408
346	440.101	-407.664
347	440.257	-405.931
348	440.413	-404.207
349	440.57	-402.493
350	440.729	-400.788
351	440.888	-399.093
352	441.048	-397.407
353	441.209	-395.73
354	440.48	-393.49
355	440.648	-391.833
356	440.816	-390.184
357	440.986	-388.544
358	441.156	-386.913
359	441.327	-385.292
360	441.499	-383.678
361	441.672	-382.074
362	441.845	-380.478
363	442.02	-378.891
364	442.195	-377.312
365	442.371	-375.742
366	442.547	-374.18
367	442.725	-372.626
368	442.903	-371.081
369	443.082	-369.544
370	443.262	-368.015
371	443.443	-366.494
372	443.625	-364.981
373	443.807	-363.475
374	443.99	-361.978
375	444.174	-360.489
376	444.359	-359.007
377	444.544	-357.533
378	444.73	-356.067
379	444.918	-354.608
380	445.105	-353.157
381	445.294	-351.713
382	445.483	-350.277
383	445.673	-348.848
384	445.864	-347.426
385	446.056	-346.012
386	446.248	-344.605
387	446.441	-343.205
388	446.635	-341.812
389	446.83	-340.426
390	447.026	-339.048
391	447.222	-337.676
392	447.419	-336.311
393	447.616	-334.953
394	447.815	-333.602
395	448.014	-332.257
396	448.214	-330.92
397	448.415	-329.589
398	448.616	-328.264
399	448.818	-326.947
400	449.021	-325.635
401	449.225	-324.331
402	449.429	-323.032
403	449.634	-321.741
404	449.84	-320.455
405	450.046	-319.176
406	450.254	-317.903
407	450.462	-316.637
408	450.67	-315.376
409	450.88	-314.122
410	451.09	-312.874
411	451.301	-311.632
412	451.512	-310.396
413	451.725	-309.166
414	451.938	-307.942
415	452.151	-306.724
416	452.366	-305.512
417	452.581	-304.306
418	452.797	-303.106
419	453.013	-301.911
420	453.23	-300.722
421	453.448	-299.539
422	453.667	-298.362
423	453.886	-297.19
424	454.106	-296.024
425	454.327	-294.863
426	454.548	-293.708
427	454.77	-292.559
428	454.993	-291.414
429	455.216	-290.276
430	455.44	-289.143
431	455.665	-288.015
432	455.891	-286.892
433	456.117	-285.775
434	456.344	-284.663
435	456.571	-283.557
436	456.799	-282.455
437	457.028	-281.359
438	457.257	-280.268
439	457.488	-279.182
440	457.718	-278.101
441	457.95	-277.026
442	458.182	-275.955
443	458.415	-274.889
444	458.648	-273.829
445	458.882	-272.773
446	459.117	-271.722
447	459.352	-270.676
448	459.588	-269.635
449	459.825	-268.599
450	460.062	-267.568
451	460.3	-266.542
452	460.539	-265.52
453	460.778	-264.503
454	461.018	-263.491
455	461.259	-262.483
456	461.5	-261.48
457	461.741	-260.482
458	461.984	-259.489
459	462.227	-258.5
460	462.47	-257.515
461	462.715	-256.535
462	462.96	-255.56
463	463.205	-254.589
464	463.451	-253.623
465	463.698	-252.661
466	463.945	-251.704
467	464.193	-250.751
468	464.442	-249.802
469	464.691	-248.858
470	464.941	-247.918
471	465.191	-246.982
472	465.442	-246.051
473	465.694	-245.124
474	465.946	-244.201
475	466.199	-243.283
476	466.453	-242.369
477	466.707	-241.459
478	466.961	-240.553
479	467.216	-239.651
480	467.472	-238.753
481	467.729	-237.86
482	467.985	-236.971
483	468.243	-236.085
484	468.501	-235.204
485	468.76	-234.327
486	469.019	-233.454
487	469.279	-232.585
488	469.539	-231.719
489	469.8	-230.858
490	470.062	-230.001
491	470.324	-229.148
492	470.587	-228.298
493	470.85	-227.453
494	471.114	-226.611
495	471.378	-225.774
496	471.643	-224.94
497	471.909	-224.11
498	472.175	-223.284
499	472.441	-222.461
500	472.708	-221.642
501	472.976	-220.828
502	473.244	-220.016
503	473.513	-219.209
504	473.783	-218.405
505	474.052	-217.605
506	474.323	-216.809
507	474.594	-216.016
508	474.865	-215.227
509	475.137	-214.442
510	475.41	-213.66
511	475.683	-212.882
512	475.956	-212.108
513	476.231	-211.337
514	476.505	-210.569
515	476.78	-209.806
516	477.056	-209.045
517	477.332	-208.289
518	477.609	-207.535
519	477.886	-206.786
520	478.164	-206.039
521	478.442	-205.297
522	478.721	-204.557
523	479	-203.821
524	479.28	-203.089
525	479.56	-202.36
526	479.841	-201.634
527	480.122	-200.912
528	480.404	-200.193
529	480.686	-199.478
530	480.968	-198.765
531	481.252	-198.057
532	481.535	-197.351
533	481.819	-196.649
534	482.104	-195.95
535	482.389	-195.254
536	482.675	-194.562
537	482.961	-193.873
538	483.247	-193.187
539	483.534	-192.505
540	483.822	-191.825
541	484.109	-191.149
542	484.398	-190.476
543	484.687	-189.807
544	484.976	-189.14
545	485.266	-188.477
546	485.556	-187.817
547	485.846	-187.16
548	486.137	-186.506
549	486.429	-185.855
550	486.721	-185.208
551	487.013	-184.563
552	487.306	-183.922
553	487.599	-183.284
554	487.893	-182.648
555	488.187	-182.016
556	488.481	-181.387
557	488.776	-180.761
558	489.072	-180.138
559	489.368	-179.518
560	489.664	-178.901
561	489.96	-178.288
562	490.257	-177.677
563	490.555	-177.069
564	490.853	-176.464
565	491.151	-175.862
566	491.45	-175.263
567	491.749	-174.667
568	492.048	-174.074
569	492.348	-173.484
570	492.648	-172.897
571	492.949	-172.313
572	493.25	-171.732
573	493.551	-171.153
574	493.853	-170.578
575	494.155	-170.005
576	494.457	-169.435
577	494.76	-168.869
578	495.064	-168.305
579	495.367	-167.744
580	495.671	-167.185
581	495.976	-166.63
582	496.28	-166.077
583	496.585	-165.528
584	496.891	-164.981
585	497.196	-164.437
586	497.502	-163.895
587	497.809	-163.357
588	498.116	-162.821
589	498.423	-162.288
590	498.73	-161.758
591	499.038	-161.231
592	499.346	-160.706
593	499.655	-160.184
594	499.963	-159.665
595	500.272	-159.149
596	500.582	-158.635
597	500.892	-158.124
598	501.202	-157.616
599	501.512	-157.11
600	501.823	-156.608
601	502.133	-156.107
602	502.445	-155.61
603	502.756	-155.115
604	503.068	-154.623
605	503.38	-154.134
606	503.693	-153.647
607	504.005	-153.163
608	504.318	-152.682
609	504.632	-152.203
610	504.945	-151.727
611	505.259	-151.254
612	505.573	-150.783
613	505.887	-150.315
614	506.202	-149.849
615	506.517	-149.386
616	506.832	-148.926
617	507.147	-148.468
618	507.463	-148.013
619	507.779	-147.56
620	508.095	-147.11
621	508.411	-146.663
622	508.728	-146.218
623	509.044	-145.776
624	509.361	-145.336
625	509.679	-144.899
626	509.996	-144.464
627	510.314	-144.032
628	510.632	-143.602
629	510.95	-143.175
630	511.268	-142.751
631	511.587	-142.329
632	511.906	-141.909
633	512.225	-141.492
634	512.544	-141.078
635	512.863	-140.666
636	513.183	-140.257
637	513.502	-139.85
638	513.822	-139.445
639	514.142	-139.043
640	514.462	-138.644
641	514.783	-138.247
642	515.103	-137.852
643	515.424	-137.46
644	515.745	-137.07
645	516.066	-136.683
646	516.387	-136.298
647	516.709	-135.916
648	517.03	-135.536
649	517.352	-135.159
650	517.674	-134.784
651	517.996	-134.411
652	518.318	-134.041
653	518.64	-133.673
654	518.962	-133.308
655	519.285	-132.945
656	519.607	-132.584
657	519.93	-132.226
658	520.252	-131.87
659	520.575	-131.517
660	520.898	-131.166
661	521.221	-130.817
662	521.545	-130.471
663	521.868	-130.127
664	522.191	-129.785
665	522.514	-129.446
666	522.838	-129.11
667	523.161	-128.775
668	523.485	-128.443
669	523.809	-128.113
670	524.133	-127.786
671	524.456	-127.461
672	524.78	-127.138
673	525.104	-126.818
674	525.428	-126.5
675	525.752	-126.184
676	526.076	-125.87
677	526.4	-125.559
678	526.724	-125.25
679	527.048	-124.944
680	527.372	-124.64
681	527.696	-124.338
682	528.021	-124.038
683	528.345	-123.741
684	528.669	-123.446
685	528.993	-123.153
686	529.317	-122.863
687	529.641	-122.574
688	529.965	-122.288
689	530.29	-122.005
690	530.614	-121.723
691	530.938	-121.444
692	531.262	-121.167
693	531.586	-120.893
694	531.91	-120.62
695	532.234	-120.35
696	532.557	-120.082
697	532.881	-119.817
698	533.205	-119.553
699	533.529	-119.292
700	533.852	-119.033
701	534.176	-118.776
702	534.499	-118.522
703	534.823	-118.269
704	535.146	-118.019
705	535.469	-117.771
706	535.792	-117.526
707	536.115	-117.282
708	536.472	-119.549
709	536.786	-119.307
710	537.1	-119.067
711	537.414	-118.829
712	537.727	-118.593
713	538.041	-118.36
714	538.355	-118.128
715	538.668	-117.899
716	538.981	-117.672
717	539.295	-117.447
718	539.608	-117.225
719	539.92	-117.004
720	540.233	-116.786
721	540.546	-116.569
722	540.858	-116.355
723	541.171	-116.143
724	541.483	-115.933
725	541.795	-115.725
726	542.106	-115.519
727	542.418	-115.316
728	542.729	-115.114
729	543.041	-114.915
730	543.352	-114.718
731	543.662	-114.523
732	543.973	-114.33
733	544.283	-114.139
734	544.594	-113.95
735	544.904	-113.763
736	545.213	-113.578
737	545.523	-113.396
738	545.832	-113.215
739	546.141	-113.036
740	546.45	-112.86
741	546.759	-112.686
742	547.067	-112.513
743	547.375	-112.343
744	547.683	-112.175
745	547.99	-112.009
746	548.298	-111.845
747	548.605	-111.683
748	548.911	-111.523
749	549.218	-111.365
750	549.524	-111.209
751	549.83	-111.055
752	550.135	-110.903
753	550.44	-110.753
754	550.745	-110.606
755	551.05	-110.46
756	551.354	-110.316
757	551.658	-110.174
758	551.961	-110.034
759	552.265	-109.897
760	552.568	-109.761
761	552.87	-109.627
762	553.172	-109.495
763	553.474	-109.366
764	553.776	-109.238
765	554.077	-109.112
766	554.377	-108.988
767	554.678	-108.866
768	554.978	-108.746
769	555.277	-108.629
770	555.577	-108.513
771	555.875	-108.399
772	556.174	-108.287
773	556.472	-108.176
774	556.769	-108.068
775	557.066	-107.962
776	557.363	-107.858
777	557.659	-107.756
778	557.955	-107.655
779	558.25	-107.557
780	558.545	-107.46
781	558.84	-107.366
782	559.134	-107.273
783	559.427	-107.182
784	559.72	-107.093
785	560.013	-107.006
786	560.305	-106.921
787	560.597	-106.838
788	560.888	-106.757
789	561.178	-106.678
790	561.469	-106.6
791	561.758	-106.525
792	562.047	-106.451
793	562.336	-106.379
794	562.624	-106.309
795	562.911	-106.241
796	563.198	-106.175
797	563.485	-106.111
798	563.771	-106.048
799	564.056	-105.988
800	564.341	-105.929
801	564.625	-105.872
802	564.909	-105.817
803	565.192	-105.764
804	565.475	-105.713
805	565.757	-105.663
806	566.038	-105.615
807	566.319	-105.569
808	566.599	-105.525
809	566.878	-105.483
810	567.157	-105.443
811	567.436	-105.404
812	567.713	-105.367
813	567.99	-105.332
814	568.267	-105.299
815	568.543	-105.267
816	568.818	-105.238
817	569.092	-105.21
818	569.366	-105.184
819	569.639	-105.159
820	569.912	-105.137
821	570.184	-105.116
822	570.455	-105.097
823	570.726	-105.08
824	570.995	-105.064
825	571.265	-105.05
826	571.533	-105.038
827	571.801	-105.028
828	572.068	-105.019
829	572.334	-105.013
830	572.6	-105.007
831	572.865	-105.004
832	573.129	-105.002
833	573.392	-105.002
834	573.655	-105.004
835	573.917	-105.008
836	574.178	-105.013
837	574.438	-105.02
838	574.698	-105.028
839	574.957	-105.038
840	575.215	-105.05
841	575.472	-105.064
842	575.729	-105.079
843	575.985	-105.096
844	576.239	-105.115
845	576.494	-105.135
846	576.747	-105.157
847	577	-105.18
848	577.251	-105.205
849	577.502	-105.232
850	577.752	-105.261
851	578.001	-105.291
852	578.25	-105.322
853	578.497	-105.356
854	578.744	-105.391
855	578.99	-105.427
856	579.235	-105.465
857	579.479	-105.505
858	579.722	-105.546
859	579.965	-105.589
860	580.206	-105.634
861	580.447	-105.68
862	580.687	-105.727
863	580.926	-105.777
864	581.163	-105.827
865	581.4	-105.88
866	581.637	-105.934
867	581.872	-105.989
868	582.106	-106.046
869	582.339	-106.105
870	582.572	-106.165
871	582.803	-106.226
872	583.034	-106.289
873	583.264	-106.354
874	583.492	-106.42
875	583.72	-106.487
876	583.947	-106.557
877	584.172	-106.627
878	584.397	-106.699
879	584.621	-106.773
880	584.844	-106.848
881	585.066	-106.924
882	585.286	-107.002
883	585.506	-107.082
884	585.725	-107.163
885	585.943	-107.245
886	586.16	-107.329
887	586.376	-107.414
888	586.59	-107.5
889	586.804	-107.588
890	587.017	-107.678
891	587.229	-107.769
892	587.439	-107.861
893	587.649	-107.955
894	587.857	-108.05
895	588.065	-108.146
896	588.271	-108.244
897	588.477	-108.343
898	588.681	-108.444
899	588.884	-108.546
900	589.086	-108.649
901	589.287	-108.754
902	589.487	-108.86
903	589.686	-108.968
904	589.884	-109.076
905	590.08	-109.186
906	590.276	-109.298
907	590.47	-109.41
908	590.664	-109.524
909	590.856	-109.64
910	591.047	-109.756
911	591.237	-109.874
912	591.426	-109.993
913	591.613	-110.114
914	591.8	-110.235
915	591.985	-110.358
916	592.169	-110.483
917	592.353	-110.608
918	592.534	-110.735
919	592.715	-110.863
920	592.895	-110.992
921	593.073	-111.122
922	593.25	-111.254
923	593.426	-111.387
924	593.601	-111.521
925	593.775	-111.656
926	593.947	-111.793
927	594.118	-111.93
928	594.289	-112.069
929	594.457	-112.209
930	594.625	-112.351
931	594.791	-112.493
932	594.957	-112.636
933	595.121	-112.781
934	595.283	-112.927
935	595.445	-113.074
936	595.605	-113.222
937	595.764	-113.371
938	595.922	-113.521
939	596.078	-113.673
940	596.234	-113.825
941	596.388	-113.979
942	596.54	-114.133
943	596.692	-114.289
944	596.842	-114.446
945	596.991	-114.604
946	597.139	-114.763
947	597.285	-114.923
948	597.43	-115.084
949	597.574	-115.246
950	597.717	-115.409
951	597.858	-115.573
952	597.998	-115.738
953	598.137	-115.904
954	598.274	-116.071
955	598.41	-116.24
956	598.545	-116.409
957	598.679	-116.579
958	598.811	-116.75
959	598.942	-116.922
960	599.071	-117.095
961	599.199	-117.269
962	599.326	-117.444
963	599.452	-117.619
964	599.576	-117.796
965	599.699	-117.974
966	599.82	-118.152
967	599.94	-118.332
968	600.059	-118.512
969	600.177	-118.693
970	600.293	-118.876
971	600.408	-119.059
972	600.521	-119.242
973	600.633	-119.427
974	600.744	-119.613
975	600.853	-119.799
976	600.961	-119.986
977	601.068	-120.175
978	601.173	-120.363
979	601.277	-120.553
980	601.379	-120.744
981	601.48	-120.935
982	601.58	-121.127
983	601.679	-121.32
984	601.775	-121.514
985	601.871	-121.708
986	601.965	-121.904
987	602.058	-122.1
988	602.149	-122.296
989	602.239	-122.494
990	602.328	-122.692
991	602.415	-122.891
992	602.501	-123.09
993	602.585	-123.291
994	602.668	-123.492
995	602.75	-123.694
996	602.83	-123.896
997	602.909	-124.099
998	602.986	-124.303
999	603.062	-124.507
1000	603.136	-124.712
